Execution Log for Question 1 - SDTM DS Creation
# A tibble: 6 × 12
  STUDYID      DOMAIN USUBJID     DSSEQ DSTERM             DSDECOD      DSCAT VISITNUM VISIT DSDTC DSSTDTC    DSSTDY
  <chr>        <chr>  <chr>       <int> <chr>              <chr>        <chr>    <dbl> <chr> <iso> <date>      <int>
1 CDISCPILOT01 DS     01-701-1015     1 PROTOCOL COMPLETED COMPLETED    DISP…       13 WEEK… 2014… 2014-07-02    182
2 CDISCPILOT01 DS     01-701-1015     2 RANDOMIZED         RANDOMIZED   DISP…        3 BASE… 2014… 2014-01-02      1
3 CDISCPILOT01 DS     01-701-1023     1 ADVERSE EVENT      ADVERSE EVE… DISP…        5 WEEK… 2012… 2012-09-02     29
4 CDISCPILOT01 DS     01-701-1023     2 RANDOMIZED         RANDOMIZED   DISP…        3 BASE… 2012… 2012-08-05      1
5 CDISCPILOT01 DS     01-701-1028     1 PROTOCOL COMPLETED COMPLETED    DISP…       13 WEEK… 2014… 2014-01-14    180
6 CDISCPILOT01 DS     01-701-1028     2 RANDOMIZED         RANDOMIZED   DISP…        3 BASE… 2013… 2013-07-19      1
